<!-- xml example file 
AddExample-CreateFlagResponse.xml -->
<Flag xmlns="http://hl7.org/fhir">
    <id value="__MESSAGEID__"/>
    <meta>
        <versionId value="__VERSIONID__"/>
        <lastUpdated value="__TIMESTAMP__"/>
        <profile value="https://fhir.nhs.uk/STU3/StructureDefinition/RARecord-Flag-1"/>
    </meta>
    <contained>
        <Provenance>
            <id value="43124f67-b09d-453d-b889-a5e2e8780b9e"/>
            <meta>
                <profile value="https://fhir.nhs.uk/STU3/StructureDefinition/RARecord-Provenance-1"/>
            </meta>
            <target>
                <reference value="Flag/__MESSAGEID__"/>
            </target>
            <recorded value="2018-07-24T10:05:33+00:00"/>
            <agent>
                <role>
                    <coding>
                        <system value="https://fhir.nhs.uk/STU3/CodeSystem/CareConnect-SDSJobRoleName-1"/>
                        <code value="R1974"/>
                        <display value="Community Learning Disabilities Nurse"/>
                    </coding>
                </role>
                <whoReference>
                    <reference value="https://sds.spineservices.nhs.uk/STU3/Practitioner/4tr6ee6a9"/>
                    <display value="Nurse N"/>
                </whoReference>
                <onBehalfOfReference>
                    <reference value="https://directory.spineservices.nhs.uk/STU3/Organization/a3e5i7"/>
                    <display value="Some Hospital Learning Disability Support Department"/>
                </onBehalfOfReference>
            </agent>
        </Provenance>
    </contained>
    <extension url="https://fhir.nhs.uk/STU3/StructureDefinition/Extension-RARecord-Provenance-1">
        <extension url="created">
            <valueReference>
                <reference value="#43124f67-b09d-453d-b889-a5e2e8780b9e"/>
            </valueReference>
        </extension>
    </extension>
    <extension url="https://fhir.nhs.uk/STU3/StructureDefinition/Extension-RARecord-AdjustmentCategory-1">
        <valueCodeableConcept>
            <coding>
                <system value="https://fhir.nhs.uk/STU3/CodeSystem/CodeSystem-RARecord-AdjustmentCategories-1"/>
                <code value="comms"/>
                <display value="Communication"/>
            </coding>
        </valueCodeableConcept>
    </extension>
    <status value="active"/>
    <category>
        <coding>
            <system value="https://fhir.nhs.uk/STU3/CodeSystem/CodeSystem-RARecord-FlagCategory-1"/>
            <code value="reasonable adjustments flag"/>
            <display value="Reasonable Adjustments Flag"/>
        </coding>
    </category>
    <code>
        <coding>
            <system value="https://fhir.nhs.uk/STU3/CodeSystem/CodeSystem-RARecord-AccessibleInformationAdjustments-1"/>
            <code value="requiresinformationineasyread"/>
            <display value="Requires information in Easyread"/>
        </coding>
    </code>
    <subject>
            <reference value="__NHSNUMBER_VALUE__"/>
    </subject>
</Flag>
