<!-- CreateExample-ListConditionResponse.xml -->
<List xmlns="http://hl7.org/fhir">
  <id value="__MESSAGEID__" />
  <meta>
    <versionId value="__VERSIONID__" />
    <profile value="https://fhir.nhs.uk/STU3/StructureDefinition/CareConnect-RARecord-List-1" />
  </meta>
  <contained>
    <Condition xmlns="http://hl7.org/fhir">
      <id value="__LISTREQUESTMESSAGEID__" />
      <meta>
        <versionId value="__REQUESTVERSIONID__" />
        <lastUpdated value="__REQUESTLASTUPDATEDTIMESTAMP__" />
        <profile value="https://fhir.nhs.uk/STU3/StructureDefinition/CareConnect-RARecord-Condition-1" />
      </meta>
      <extension url="https://fhir.nhs.uk/STU3/StructureDefinition/Extension-RARecord-Provenance-1">
        <extension url="created">
          <valueReference>
            <reference value="urn:uuid:__REQUESTPROVENANCEID__" />
          </valueReference>
        </extension>
      </extension>
      <clinicalStatus value="active" />
      <category>
        <coding>
          <system value="https://fhir.hl7.org.uk/STU3/CodeSystem/CareConnect-ConditionCategory-1" />
          <code value="issue" />
          <display value="Issue" />
        </coding>
      </category>
      <code>
        <coding>
          <system value="https://fhir.nhs.uk/STU3/CodeSystem/CodeSystem-RARecord-ConditionCode-1" />
          <code value="1855002" />
          <display value="Learning Disability(s)" />
        </coding>
      </code>
      <subject>
        <reference value="demographics.spineservices.nhs.uk/STU3/Patient/__NHSNUMBER_VALUE__" />
      </subject>
    </Condition>
  </contained>
  <contained>
    <Provenance>
      <id value="__REQUESTPROVENANCEID__" />
      <meta>
        <profile value="https://fhir.nhs.uk/STU3/StructureDefinition/RARecord-Provenance-1" />
      </meta>
      <target>
        <reference value="Condition/__LISTREQUESTMESSAGEID__" />
      </target>
      <recorded value="2018-07-23T11:00:00+00:00" />
      <agent>
        <role>
          <coding>
            <system value="https://fhir.nhs.uk/STU3/CodeSystem/CareConnect-SDSJobRoleName-1" />
            <code value="R0260" />
            <display value="General Medical Practitioner" />
          </coding>
        </role>
        <whoReference>
          <reference value="https://sds.spineservices.nhs.uk/STU3/Practitioner/2ee4tr6a9" />
          <display value="Dr.D" />
        </whoReference>
        <onBehalfOfReference>
          <reference value="https://directory.spineservices.nhs.uk/STU3/Organization/a3e5i7" />
          <display value="Some GP Clinic" />
        </onBehalfOfReference>
      </agent>
    </Provenance>
  </contained>
  <status value="current" />
  <mode value="changes" />
  <title value="Reasonable Adjustment List" />
  <code>
    <coding>
      <system value="http://snomed.info/sct" />
      <code value="1094391000000102" />
      <display value="Reasonable adjustments for health and care access" />
    </coding>
  </code>
  <subject>
    <reference value="demographics.spineservices.nhs.uk/STU3/Patient/__NHSNUMBER_VALUE__" />
  </subject>
  <date value="__REQUESTTIMESTAMP__" />
  <entry>
    <deleted value="false" />
    <date value="__REQUESTDELETEDVERSIONTIMESTAMP__" />
    <item>
      <reference value="urn:uuid:__REQUESTVERSIONID__" />
    </item>
  </entry>
  <entry>
    <deleted value="false" />
    <date value="__REQUESTDELETEDPROVENANCETIMESTAMP__" />
    <item>
      <reference value="urn:uuid:__REQUESTPROVENANCEID__" />
    </item>
  </entry>
</List>
